Folder: Lemon-Peel-Derived-Activated-Carbon

Note: README.md
# Lemon-Peel-Derived-Activated-Carbon
Research work

File: FTIR C.txt
##TITLE=No Description
##DATA TYPE=INFRARED SPECTRUM
##XUNITS=1/CM
##YUNITS=%T
349.116  	39.4521
364.546  	35.1728
379.977  	196.156
395.407  	84.3878
410.838  	118.41
426.268  	101.959
441.699  	104.608
457.129  	104.516
472.56  	103.251
487.99  	104.25
503.421  	104.007
518.852  	103.737
534.282  	103.548
549.713  	103.223
565.143  	101.801
580.574  	101.775
596.004  	102.296
611.435  	102.341
626.865  	103.072
642.296  	103.222
657.726  	103.465
673.157  	102.901
688.587  	102.629
704.018  	102.247
719.448  	102.524
734.879  	102.929
750.309  	102.829
765.74  	102.407
781.17  	102.182
796.601  	102.112
812.032  	101.828
827.462  	101.622
842.893  	101.15
858.323  	98.7968
873.754  	98.7064
889.184  	102.208
904.615  	101.936
920.045  	101.569
935.476  	101.001
950.906  	100.609
966.337  	100.364
981.767  	100.078
997.198  	98.8533
1012.63  	97.2787
1028.06  	96.3102
1043.49  	96.0143
1058.92  	96.2398
1074.35  	96.9811
1089.78  	97.6882
1105.21  	98.1182
1120.64  	98.4185
1136.07  	98.8948
1151.5  	99.3126
1166.93  	99.7009
1182.36  	99.7391
1197.79  	99.5538
1213.23  	99.1965
1228.66  	99.1711
1244.09  	98.8331
1259.52  	98.3286
1274.95  	97.6332
1290.38  	96.9651
1305.81  	96.3838
1321.24  	95.074
1336.67  	93.9212
1352.1  	92.1008
1367.53  	89.8625
1382.96  	88.4073
1398.39  	88.1256
1413.82  	88.9624
1429.25  	89.7854
1444.68  	90.5814
1460.11  	90.1752
1475.54  	92.1384
1490.97  	94.183
1506.41  	96.3902
1521.84  	97.6387
1537.27  	99.9634
1552.7  	100.611
1568.13  	101
1583.56  	100.931
1598.99  	100.975
1614.42  	101.331
1629.85  	101.078
1645.28  	101.409
1660.71  	101.223
1676.14  	100.766
1691.57  	101.065
1707  	100.903
1722.43  	101.097
1737.86  	101.002
1753.29  	100.591
1768.72  	100.655
1784.15  	100.432
1799.59  	100.428
1815.02  	100.467
1830.45  	100.122
1845.88  	100.073
1861.31  	100.197
1876.74  	100.156
1892.17  	100.008
1907.6  	99.8515
1923.03  	99.6314
1938.46  	99.6695
1953.89  	99.5247
1969.32  	99.0435
1984.75  	99.3559
2000.18  	99.5696
2015.61  	99.3839
2031.04  	99.2001
2046.47  	99.1637
2061.9  	99.0269
2077.33  	99.0679
2092.77  	98.7318
2108.2  	98.9306
2123.63  	98.9022
2139.06  	98.8274
2154.49  	98.5896
2169.92  	98.7363
2185.35  	98.394
2200.78  	98.4239
2216.21  	98.2383
2231.64  	98.439
2247.07  	98.3456
2262.5  	98.2539
2277.93  	98.0456
2293.36  	98.1113
2308.79  	98.1298
2324.22  	98.1556
2339.65  	98.1238
2355.08  	98.1895
2370.51  	97.991
2385.95  	98.0298
2401.38  	98.0233
2416.81  	97.9993
2432.24  	97.9312
2447.67  	97.9869
2463.1  	97.8663
2478.53  	97.8266
2493.96  	97.8757
2509.39  	97.7689
2524.82  	97.6276
2540.25  	97.7456
2555.68  	97.6805
2571.11  	97.6027
2586.54  	97.6168
2601.97  	97.5661
2617.4  	97.6073
2632.83  	97.5675
2648.26  	97.5174
2663.69  	97.4649
2679.13  	97.4014
2694.56  	97.3198
2709.99  	97.2801
2725.42  	97.1947
2740.85  	97.0596
2756.28  	96.9773
2771.71  	96.86
2787.14  	96.8179
2802.57  	96.7205
2818  	96.595
2833.43  	96.5304
2848.86  	96.5039
2864.29  	96.3827
2879.72  	96.3452
2895.15  	96.3515
2910.58  	96.3602
2926.01  	96.3009
2941.44  	96.3528
2956.87  	96.3347
2972.31  	96.3578
2987.74  	96.4036
3003.17  	96.4718
3018.6  	96.3672
3034.03  	96.3739
3049.46  	96.3537
3064.89  	96.3705
3080.32  	96.4013
3095.75  	96.3459
3111.18  	96.3287
3126.61  	96.485
3142.04  	96.5309
3157.47  	96.4327
3172.9  	96.5358
3188.33  	96.5925
3203.76  	96.7311
3219.19  	96.7607
3234.62  	96.8806
3250.05  	96.8661
3265.49  	96.9069
3280.92  	96.9589
3296.35  	96.8979
3311.78  	97.0815
3327.21  	97.1056
3342.64  	97.1146
3358.07  	97.0387
3373.5  	97.1228
3388.93  	97.106
3404.36  	97.1415
3419.79  	97.2449
3435.22  	97.2966
3450.65  	97.1712
3466.08  	97.2388
3481.51  	97.3949
3496.94  	97.4412
3512.37  	97.44
3527.8  	97.3646
3543.23  	97.6577
3558.67  	97.6215
3574.1  	97.6577
3589.53  	97.167
3604.96  	97.9631
3620.39  	97.0584
3635.82  	97.5941
3651.25  	96.6718
3666.68  	98.1084
3682.11  	97.7061
3697.54  	97.7901
3712.97  	96.8915
3728.4  	97.7591
3743.83  	97.4521
3759.26  	97.3995
3774.69  	97.8403
3790.12  	97.6889
3805.55  	97.6443
3820.98  	97.2065
3836.42  	97.7961
3851.85  	98.024
3867.28  	97.8228
3882.71  	97.728
3898.14  	97.9118
3913.57  	97.7692
3929  	97.6973
3944.43  	97.4549
3959.86  	97.6587
3975.29  	97.5536
3990.72  	97.6405
4006.15  	97.6333
4021.58  	97.6735
4037.01  	97.583
4052.44  	97.6775
4067.87  	97.6554
4083.3  	97.6647
4098.73  	97.6301
4114.16  	97.6862
4129.6  	97.7191
4145.03  	97.6568
4160.46  	97.681
4175.89  	97.6614
4191.32  	97.5495
4206.75  	97.6207
4222.18  	97.6066
4237.61  	97.6445
4253.04  	97.5403
4268.47  	97.692
4283.9  	97.753
4299.33  	97.7436
4314.76  	97.7251
4330.19  	97.708
4345.62  	97.6753
4361.05  	97.6662
4376.48  	97.6647
4391.91  	97.7549
4407.34  	97.5946
4422.78  	97.6335
4438.21  	97.6559
4453.64  	97.6484
4469.07  	97.6927
4484.5  	97.7141
4499.93  	97.725

File: XRD C.uxd
;content of C:\Users\HF1N8D2\AppData\Local\Temp\92fetmp887375713.raw - (Diffrac Plus V4 file)
_FILEVERSION = 3
_SAMPLE = Commander Sample ID
_+SAMPLE
_USER = Lab Manager
_GONIOMETER_CODE = 21
_STAGE_CODE = 7
; Goniometer : D8 theta/theta, stage : Chi drive
_SAMPLE_CHANGER_CODE = 0
_ATTACHMENTS_CODE = 0
_GONIOMETER_RADIUS = 280
_MONOCHROMATOR = 0
; Incident beam monochromator : None
_BETA_FILTER = N
_ANALYZER_CODE = 0
; Received beam analyzer : None
_DATEMEASURED = 01-Aug-2021 15:42:48
_RUNTIME = 7.858514
_WL_UNIT = A
_WL1 = 1.5406
_WL2 = 1.54439
_WL3 = 1.39222
_WLRATIO = 0.5
_ANODE = Cu
_V4_INF_USER = Lab Manager
_V4_INF_SAMPLEID = Commander Sample ID
_V4_INF_CREATOR = V5Converter
_V4_INF_CREATOR_VERSION = 6.1.2.0

; Data for range 1
_DRIVE = COUPLED
_STEPTIME = 79.5
_STEPSIZE = 0.050057
_STEPMODE = C
_START = 5.0001
_THETA = 2.50005
_2THETA = 5.0001
_DETECTORSLIT = out
_TIMESTARTED = 0
_ROTATION_SPEED = 5
_KV = 40
_MA = 25
_RANGE_WL = 1.5406
_3DPLANE = 0
_V4_PSD2THETA = 9999
_V4_PSDCHANNEL1 = 0
_V4_PSDAPERTURE = 2.436459
_V4_PSDTYPE = 5
_V4_PSDFIXED = 0
_V4_COUNTERS_MASK = 1
_V4_DRIVES_MASK = 0
_V4_ENCODERS_MASK = 0
_2THETACOUNTS = 1
; 2THETA	Cnt2_D1
5.000100	92
5.250386	106
5.500672	116
5.750958	84
6.001244	98
6.251531	95
6.501817	88
6.752103	88
7.002389	111
7.252675	120
7.502961	120
7.753247	119
8.003533	108
8.253819	132
8.504105	133
8.754392	140
9.004678	134
9.254964	163
9.505250	139
9.755536	137
10.0058	133
10.2561	155
10.5064	161
10.7567	154
11.007	192
11.2573	164
11.5075	172
11.7578	174
12.0081	146
12.2584	139
12.5087	165
12.759	167
13.0093	160
13.2595	187
13.5098	232
13.7601	174
14.0104	202
14.2607	163
14.511	162
14.7613	155
15.0115	170
15.2618	153
15.5121	162
15.7624	157
16.0127	171
16.263	192
16.5133	174
16.7635	160
17.0138	171
17.2641	173
17.5144	169
17.7647	191
18.015	186
18.2653	165
18.5156	182
18.7658	193
19.0161	203
19.2664	194
19.5167	276
19.767	240
20.0173	197
20.2676	191
20.5178	229
20.7681	263
21.0184	220
21.2687	209
21.519	226
21.7693	233
22.0196	191
22.2698	201
22.5201	220
22.7704	225
23.0207	202
23.271	228
23.5213	250
23.7716	237
24.0218	243
24.2721	238
24.5224	228
24.7727	217
25.023	222
25.2733	241
25.5236	286
25.7738	294
26.0241	280
26.2744	240
26.5247	239
26.775	284
27.0253	280
27.2756	244
27.5258	225
27.7761	253
28.0264	492
28.2767	858
28.527	284
28.7773	222
29.0276	237
29.2779	262
29.5281	597
29.7784	507
30.0287	395
30.279	315
30.5293	305
30.7796	284
31.0299	269
31.2801	234
31.5304	217
31.7807	234
32.031	316
32.2813	257
32.5316	251
32.7819	205
33.0321	231
33.2824	312
33.5327	423
33.783	290
34.0333	582
34.2836	617
34.5339	265
34.7841	194
35.0344	187
35.2847	223
35.535	216
35.7853	169
36.0356	207
36.2859	188
36.5361	174
36.7864	181
37.0367	195
37.287	183
37.5373	197
37.7876	202
38.0379	192
38.2882	185
38.5384	178
38.7887	185
39.039	200
39.2893	216
39.5396	304
39.7899	215
40.0402	223
40.2904	236
40.5407	242
40.791	280
41.0413	296
41.2916	258
41.5419	257
41.7922	271
42.0424	325
42.2927	260
42.543	224
42.7933	244
43.0436	235
43.2939	278
43.5442	224
43.7944	209
44.0447	215
44.295	194
44.5453	175
44.7956	297
45.0459	253
45.2962	250
45.5464	214
45.7967	222
46.047	202
46.2973	239
46.5476	224
46.7979	214
47.0482	219
47.2985	247
47.5487	261
47.799	210
48.0493	179
48.2996	221
48.5499	356
48.8002	281
49.0505	203
49.3007	162
49.551	210
49.8013	222
50.0516	259
50.3019	207
50.5522	181
50.8025	206
51.0527	201
51.303	174
51.5533	176
51.8036	148
52.0539	199
52.3042	221
52.5545	199
52.8047	155
53.055	138
53.3053	156
53.5556	215
53.8059	178
54.0562	208
54.3065	211
54.5567	183
54.807	220
55.0573	183
55.3076	176
55.5579	159
55.8082	190
56.0585	198
56.3088	160
56.559	176
56.8093	167
57.0596	192
57.3099	198
57.5602	203
57.8105	179
58.0608	164
58.311	190
58.5613	164
58.8116	143
59.0619	143
59.3122	171
59.5625	196
59.8128	163
60.063	157
60.3133	127
60.5636	212
60.8139	252
61.0642	211
61.3145	177
61.5648	161
61.815	172
62.0653	204
62.3156	173
62.5659	158
62.8162	160
63.0665	191
63.3168	163
63.567	123
63.8173	134
64.0676	164
64.3179	186
64.5682	169
64.8185	154
65.0688	157
65.3191	159
65.5693	173
65.8196	178
66.0699	116
66.3202	131
66.5705	162
66.8208	154
67.0711	117
67.3213	123
67.5716	114
67.8219	157
68.0722	153
68.3225	135
68.5728	136
68.8231	96
69.0733	160
69.3236	165
69.5739	122
69.8242	108
70.0745	161
70.3248	144
70.5751	128
70.8253	150
71.0756	120
71.3259	123
71.5762	165
71.8265	133
72.0768	118
72.3271	113
72.5773	149
72.8276	125
73.0779	160
73.3282	120
73.5785	134
73.8288	157
74.0791	144
74.3294	151
74.5796	110
74.8299	133
75.0802	144
75.3305	132
75.5808	131
75.8311	108
76.0814	118
76.3316	161
76.5819	152
76.8322	123
77.0825	138
77.3328	127
77.5831	163
77.8334	120
78.0836	119
78.3339	132
78.5842	143
78.8345	151
79.0848	132
79.3351	108
79.5854	113
79.8356	137
80.0359	135